<?xml version="1.0" encoding="UTF-8"?><ImplementationGuide xmlns="http://hl7.org/fhir"><id value="PhCP"/><meta><versionId value="44"/><lastUpdated value="2019-01-30T17:05:47.096-05:00"/></meta><contained><Binary><id value="6582"/><contentType value="text/markdown"/><content value=""/></Binary></contained><contained><Binary><id value="5266"/><contentType value="text/markdown"/><content value=""/></Binary></contained><contained><Binary><id value="5462"/><contentType value="text/markdown"/><content value=""/></Binary></contained><contained><Binary><id value="5152"/><contentType value="text/markdown"/><content value=""/></Binary></contained><contained><Binary><id value="7970"/><contentType value="text/markdown"/><content value=""/></Binary></contained><extension url="https://trifolia-fhir.lantanagroup.com/stu3/StructureDefinition/github-branch"><valueString value="master"/></extension><extension url="https://trifolia-fhir.lantanagroup.com/stu3/StructureDefinition/github-path"><valueString value="HL7/PhCP/resources/implementationguide/implementationguide-PhCP.xml"/></extension><extension url="https://trifolia-on-fhir.lantanagroup.com/StructureDefinition/extension-ig-dependency"><extension url="https://trifolia-on-fhir.lantanagroup.com/StructureDefinition/extension-ig-dependency-location"><valueUri value="http://hl7.org/fhir/us/ccda"/></extension><extension url="https://trifolia-on-fhir.lantanagroup.com/StructureDefinition/extension-ig-dependency-name"><valueString value="ccda"/></extension><extension url="https://trifolia-on-fhir.lantanagroup.com/StructureDefinition/extension-ig-dependency-version"><valueString value="1.0.0"/></extension></extension><extension url="https://trifolia-on-fhir.lantanagroup.com/StructureDefinition/extension-ig-dependency"><extension url="https://trifolia-on-fhir.lantanagroup.com/StructureDefinition/extension-ig-dependency-name"><valueString value="uscore"/></extension><extension url="https://trifolia-on-fhir.lantanagroup.com/StructureDefinition/extension-ig-dependency-location"><valueUri value="http://hl7.org/fhir/us/core"/></extension><extension url="https://trifolia-on-fhir.lantanagroup.com/StructureDefinition/extension-ig-dependency-version"><valueString value="2.0.0"/></extension></extension><url value="http://hl7.org/fhir/us/phcp/ImplementationGuide/PhCP"/><version value="1.0.0"/><name value="Pharmacist Services and Summaries (FHIR)"/><status value="draft"/><contact><name value="Rick Geimer"/><telecom><system value="email"/><value value="rick.geimer@lantanagroup.com"/></telecom></contact><contact><name value="Arvind Jagannathan"/><telecom><system value="email"/><value value="arvind.jagannathan@lantanagroup.com"/></telecom></contact><description value="This document describes constraints on the the FHIR Composition resource for a Pharmacist Care Plan, which are derived from requirements set forth by the Pharmacy Health Information Technology (HIT) Collaborative1 and the National Council for Prescription Drug Programs (NCPDP) WG10 Professional Pharmacy Services,2 vendors, and Health Level Seven (HL7) stakeholder workgroups. Templates in this US Realm implementation guide are specific to pharmacy management treatment and interventions that will promote interoperability and will create information suitable for reuse in quality measurement, public health reporting, research, and reimbursement.&#xA;&#xA;This guide contains a library of Fast Health Interoperability Resources (FHIR) profiles, and is compliant with the  C-CDA on FHIR specification"/><fhirVersion value="3.0.1"/><package><name value="Profiles in this Implementation Guide"/><resource><example value="false"/><sourceReference><reference value="StructureDefinition/PhCP-Composition"/><display value="Pharmacist Care Plan Document (FHIR)"/></sourceReference></resource><resource><example value="false"/><sourceReference><reference value="StructureDefinition/PhCP-Intervention-List"/><display value="PhCP Intervention List"/></sourceReference></resource><resource><example value="false"/><sourceReference><reference value="StructureDefinition/PhCP-MedicationDispense"/><display value="PhCP MedicationDispense"/></sourceReference></resource><resource><example value="false"/><sourceReference><reference value="StructureDefinition/PhCP-CareCoordination"/><display value="PhCP CareCoordination"/></sourceReference></resource><resource><example value="false"/><sourceReference><reference value="StructureDefinition/PhCP-Referral-ProcedureRequest"/><display value="PhCP Referral ProcedureRequest"/></sourceReference></resource><resource><example value="false"/><sourceReference><reference value="StructureDefinition/PhCP-Education-Procedure"/><display value="PhCP Education Procedure"/></sourceReference></resource><resource><example value="false"/><sourceReference><reference value="ValueSet/2.16.840.1.113883.11.20.9.34"/><display value="2.16.840.1.113883.11.20.9.34"/></sourceReference></resource><resource><example value="false"/><sourceReference><reference value="StructureDefinition/PhCP-Coverage"/><display value="PhCP-Coverage"/></sourceReference></resource><resource><example value="true"/><sourceReference><reference value="Patient/patient-phcp"/><display value="patient-phcp.xml"/></sourceReference></resource><resource><example value="true"/><sourceReference><reference value="Practitioner/practitioner-phcp"/><display value="practitioner-1.xml"/></sourceReference></resource><resource><example value="true"/><sourceReference><reference value="RelatedPerson/related-person-phcp"/><display value="related-person.xml"/></sourceReference></resource><resource><example value="true"/><sourceReference><reference value="Organization/organization-phcp"/><display value="Acme Labs"/></sourceReference></resource><resource><example value="true"/><sourceReference><reference value="Composition/PhCP-Composition-Example"/><display value="PhCP-Composition-Example.xml"/></sourceReference><exampleFor><reference value="StructureDefinition/PhCP-Composition"/><display value="PhCP Composition"/></exampleFor></resource></package><page><extension url="https://trifolia-on-fhir.lantanagroup.com/StructureDefinition/extension-ig-page-auto-generate-toc"><valueBoolean value="true"/></extension><source value="index.md"/><title value="Pharmacist Services and Summaries (FHIR)"/><kind value="toc"/><page><extension url="https://trifolia-on-fhir.lantanagroup.com/StructureDefinition/extension-ig-page-content"><valueReference><reference value="#6582"/><display value="Page content 6582"/></valueReference></extension><source value="acknowledgements.md"/><title value="Acknowledgments"/><kind value="page"/><format value="markdown"/></page><page><extension url="https://trifolia-on-fhir.lantanagroup.com/StructureDefinition/extension-ig-page-content"><valueReference><reference value="#5266"/><display value="Page content 5266"/></valueReference></extension><source value="audience.md"/><title value="Audience"/><kind value="page"/><format value="markdown"/></page><page><extension url="https://trifolia-on-fhir.lantanagroup.com/StructureDefinition/extension-ig-page-content"><valueReference><reference value="#5462"/><display value="Page content 5462"/></valueReference></extension><source value="approach.md"/><title value="Approach"/><kind value="page"/><format value="markdown"/></page><page><extension url="https://trifolia-on-fhir.lantanagroup.com/StructureDefinition/extension-ig-page-content"><valueReference><reference value="#5152"/><display value="Page content 5152"/></valueReference></extension><source value="background.md"/><title value="Project Background"/><kind value="page"/><format value="markdown"/></page><page><extension url="https://trifolia-on-fhir.lantanagroup.com/StructureDefinition/extension-ig-page-content"><valueReference><reference value="#7970"/><display value="Page content 7970"/></valueReference></extension><source value="project.md"/><title value="Current Project"/><kind value="page"/><format value="markdown"/></page></page></ImplementationGuide>